Folder: tavtech/TwitterData

Note: README.md
This is a compilation of learning materials and project files created for the TAVtech Fellowship in Tel Aviv, Israel (Winter 2019).

File: xrd
484070756578361344
484070789029711872
484070801776193536
484070803487469568
484070807216209921
484070817651642368
484070821334237184
484070833262825472
484070857955115008
484070859494002689
484070866997633025
484070868226551808
484070868554117120
484070868704698368
484070871284191232
484070872953520129
484070875172311040
484070876963278848
484070878183821312
484070881019183104